File: data/df_xrf.csv
,sio2,tio2,al2o3,fe2o3,mgo,cao,mno,k2o,p2o5,rock_type
0,75.9708,0.0447749,9.6934,1.07925,0.230089,0.330458,0.13109,3.6111,0.116388,granite
2,74.3772,0.0335337,6.21096,0.340443,0.230089,0.442249,0.0199777,1.76084,0.234403,granite
4,70.7593,0.0436495,11.5085,0.338909,0.230089,0.391176,0.0173991,4.29952,0.149314,granite
6,86.7066,0.0335337,12.6673,0.415945,0.230089,0.301711,0.020697,3.86051,0.139795,granite
8,87.6524,0.0444224,11.6502,0.427586,0.230089,0.19565,0.0135582,3.74752,0.056516,granite
10,83.297,0.127152,13.4582,0.77032,0.230089,0.252032,0.0180641,3.8915,0.0642574,granite
12,77.5637,0.230682,15.4102,1.22073,0.371625,0.246223,0.0372546,3.90208,0.0556189,granite
14,82.8072,0.294888,14.5272,1.19893,0.587233,0.262897,0.0847831,2.87413,0.0496716,granite
16,81.2312,0.23734,14.8797,1.09404,0.230089,0.282625,0.0366032,3.16427,0.0660184,granite
18,81.6379,0.218586,14.5669,0.976726,0.230089,0.272981,0.0295458,3.19289,0.0482429,granite
20,77.051,0.319079,15.9788,1.11179,0.230089,0.29811,0.0294644,3.43069,0.0562169,granite
22,80.8215,0.305044,14.4223,1.25344,0.230089,0.40295,0.0349745,2.63883,0.218007,granite
24,81.2405,0.23239,15.1752,0.991995,0.368695,0.407428,0.0270079,2.42759,0.15674,granite
26,80.9209,0.345494,15.4469,0.824107,0.338308,0.234355,0.0268315,2.84892,0.0621975,granite
28,76.9563,0.272134,14.4456,1.50752,0.230089,0.19504,0.0855431,2.35455,0.0747067,granite
30,63.561,0.495141,12.8112,1.41546,0.230089,0.190327,0.0463477,1.44036,0.0498211,granite
32,68.8045,0.372464,16.6457,1.17246,0.230089,0.132427,0.0341059,3.071,0.250866,granite
34,81.8135,0.272718,14.3754,1.02209,0.364001,0.291393,0.0324366,2.84598,0.0537084,granite
36,79.9933,0.256134,14.3979,1.5197,0.600747,0.234652,0.046877,3.03833,0.0550707,granite
38,80.2675,0.442529,14.4372,1.39485,0.447922,0.266107,0.0416383,3.31222,0.0625629,granite
40,84.1576,0.307051,13.584,1.41803,0.381196,0.228828,0.0404033,2.95859,0.0476781,granite
42,79.7159,0.290603,15.1457,1.76711,0.560221,0.160626,0.12178,3.96948,0.037561,granite
44,77.9336,0.347311,15.7376,2.50114,0.794252,0.242402,0.0960884,3.62811,0.0558681,granite
46,80.6717,0.247849,14.6987,1.63667,0.714212,0.221281,0.0551015,3.16428,0.0291052,granite
48,79.9611,0.306997,16.2684,1.18559,0.483156,0.285303,0.041299,3.37402,0.0439236,granite
50,78.3717,0.386377,16.5227,1.46558,0.583276,0.179038,0.045547,4.04129,0.0425282,granite
52,79.1878,0.172781,16.4006,0.907787,0.456926,0.223927,0.0376482,3.32096,0.0277928,granite
54,81.2174,0.235157,15.463,0.984872,0.55634,0.306111,0.0348931,3.21561,0.0536752,granite
56,79.6503,0.204443,15.018,0.822046,0.230089,0.262506,0.0249178,3.34504,0.0659519,granite
58,84.3248,0.182964,13.0874,0.780675,0.230089,0.18682,0.0227599,3.08763,0.0400197,granite
60,79.4299,0.18348,14.4425,1.03221,0.230089,0.186945,0.0378518,3.52005,0.030617,granite
62,79.9142,0.219441,13.8656,0.846713,0.230089,0.265262,0.0275508,3.27562,0.0420298,granite
64,80.424,0.291634,15.3859,0.834165,0.499109,0.1693,0.0465106,3.38842,0.039106,granite
66,86.2229,0.150556,13.0925,0.787667,0.230089,0.169519,0.0318395,2.99479,0.0241547,granite
68,81.042,0.300868,15.5341,0.830488,0.230089,0.191141,0.0262072,3.32203,0.043309,granite
70,79.4158,0.285423,13.8649,0.876508,0.422306,0.194038,0.0256371,3.38473,0.0302681,granite
72,66.1404,0.362878,15.2535,1.31353,0.230089,0.211057,0.0523057,3.15375,0.0835778,granite
74,81.7293,0.220946,14.7726,0.989571,0.230089,0.250247,0.0242528,3.12148,0.0272114,granite
76,78.1018,0.257924,15.1153,1.21085,0.440805,0.179461,0.0311609,4.39805,0.0246531,granite
78,79.9384,0.327839,10.7795,1.89734,0.568811,0.237126,0.0667054,1.31219,0.0225433,granite
80,79.3742,0.431735,13.6453,1.68696,0.633804,0.193662,0.0521022,3.83746,0.0326105,granite
82,67.8894,0.46196,13.8354,1.57918,0.536844,0.209648,0.105941,4.11655,0.0411659,granite
84,67.1319,0.479941,13.308,2.07117,0.57487,0.239318,0.106797,2.42706,0.0446546,granite
86,78.7249,0.361996,14.9084,1.11917,0.362743,0.241479,0.0344724,3.57011,0.0301186,granite
88,78.2747,0.348843,15.8716,1.2758,0.489599,0.268221,0.0383539,3.58761,0.0414982,granite
90,77.2225,0.422799,15.1587,0.980931,0.230089,0.338302,0.0451534,3.29703,0.104443,granite
92,78.5156,0.533028,14.262,1.1557,0.462142,0.221532,0.0329659,3.57293,0.0624134,granite
94,74.8156,0.326388,14.6435,0.964475,0.230089,0.241667,0.030903,3.72335,0.0278261,granite
96,75.7449,0.257842,16.2204,0.851066,0.230089,0.252266,0.0244971,4.64375,0.0543397,granite
98,76.916,0.3275,15.0109,1.24119,0.483187,0.252673,0.0338752,3.32719,0.0319958,granite
100,73.7788,0.51563,12.7226,1.06478,0.4347,0.290861,0.0445834,2.71717,0.0381591,granite
102,76.2642,0.238953,15.3604,1.04115,0.230089,0.308757,0.0306451,2.73803,0.0371457,granite
104,79.8369,0.223468,15.082,0.941424,0.526889,0.235482,0.0273336,3.8791,0.0292049,granite
106,81.0658,0.346551,15.3053,1.30795,0.230089,0.242089,0.0330066,3.68499,0.0569313,granite
108,78.0064,0.351569,15.313,1.15631,0.230089,0.242183,0.0321923,3.8752,0.0332251,granite
110,79.5649,0.255402,14.3552,1.25839,0.230089,0.246849,0.0329116,3.29238,0.0175429,granite
112,80.6059,0.265517,15.3888,1.38481,0.50592,0.306565,0.0390189,3.31919,0.0604199,granite
114,82.0499,0.317655,14.3141,1.03292,0.414789,0.222894,0.0293015,2.88239,0.0167455,granite
116,81.9396,0.417389,15.5291,0.833209,0.34949,0.240602,0.024945,3.15458,0.0301518,granite
118,73.5842,0.309329,14.9268,0.881751,0.230089,0.211762,0.0529843,3.46388,0.0359496,granite
120,67.4833,0.290888,11.8254,1.17395,0.230089,0.290438,0.0855838,2.19782,0.0373451,granite
122,75.8059,0.274236,12.9289,1.22645,0.230089,0.188495,0.0412719,2.95844,0.0184067,granite
124,67.5029,0.806139,18.7256,7.16699,3.90719,5.33716,0.165047,1.68686,0.171276,diorite
126,66.1637,1.13775,15.8163,8.73436,4.95948,4.07379,0.150471,2.1558,0.197906,diorite
128,69.2357,1.00283,17.0984,6.60379,3.93661,4.08317,0.0994406,1.65089,0.100523,diorite
130,65.2773,0.962837,18.7887,7.63992,3.98697,5.26853,0.151393,1.96202,0.137419,diorite
132,59.0036,1.148,19.7717,9.29722,5.49164,5.67549,0.174262,2.29144,0.255717,diorite
134,67.4299,0.823075,15.0628,6.32936,3.44807,3.69932,0.0825709,1.88846,0.0903392,diorite
136,67.1203,0.751492,15.3622,6.93279,3.88028,3.18832,0.077115,2.07053,0.141672,diorite
138,61.2344,1.01058,17.9516,8.76951,4.66627,4.93496,0.195868,1.73114,0.234171,diorite
140,57.7152,1.17029,17.3723,11.3865,6.00588,3.72741,0.168589,2.60001,0.231513,diorite
142,60.7935,0.946077,18.4712,8.74462,4.29049,5.15889,0.341141,1.55852,0.186493,diorite
144,60.8954,1.31385,19.8493,8.80569,5.00746,6.03974,0.21643,2.29265,0.226512,diorite
146,61.8693,1.27088,17.5916,8.46144,4.51363,6.60201,0.270282,1.73824,0.202358,diorite
148,63.7264,0.559171,17.4471,6.80767,3.41877,6.33519,0.21476,2.57528,0.122501,diorite
150,29.3605,0.836079,8.36864,12.5218,1.93174,3.96014,3.71786,0.72235,0.0488576,diorite
152,55.661,1.06755,16.6745,9.60295,4.38234,6.85857,0.24508,1.49036,0.237792,diorite
154,61.7928,0.922415,17.5936,7.77764,3.45465,5.43852,0.18402,2.14044,0.211628,diorite
156,70.0662,0.662146,15.7282,5.97496,3.02231,4.8318,0.136505,1.70026,0.152487,diorite
158,60.3041,0.93306,17.3196,8.70476,4.09399,5.50698,0.169186,2.12972,0.142818,diorite
160,60.5069,0.862128,16.6564,7.79808,4.15032,5.13014,0.155126,2.09938,0.137585,diorite
162,64.3525,0.940341,17.0286,8.49913,5.03364,5.66843,0.175266,2.02363,0.205448,diorite
164,60.3994,0.975719,19.454,8.75299,5.14202,5.85398,0.162495,2.16639,0.201195,diorite
166,63.6148,0.763628,17.7556,7.08217,3.90167,5.25765,0.152371,2.24908,0.147702,diorite
168,64.504,0.899661,18.3617,8.30358,4.31949,5.40738,0.156239,2.337,0.160461,diorite
170,60.8624,1.03226,19.4143,8.34536,4.54013,5.4042,0.167476,2.44847,0.184483,diorite
172,64.1256,0.999124,19.0175,8.83705,4.82018,5.50568,0.183043,2.55457,0.199235,diorite
174,61.6354,1.05407,17.6119,9.47276,4.92072,5.17977,0.181048,2.43666,0.195131,diorite
176,65.0475,0.579972,17.4524,6.53359,3.44353,5.30608,0.17224,2.18586,0.147669,diorite
178,60.2611,0.917669,16.2365,9.17847,5.23852,6.29255,0.244835,2.0948,0.194865,diorite
180,68.3723,0.621493,15.8728,6.33626,3.5839,5.17036,0.201121,2.10145,0.159962,diorite
182,51.135,0.755207,13.2001,7.67831,3.4468,5.82708,0.234656,2.59341,0.178917,diorite
184,67.5437,0.656125,17.7833,6.23945,3.7855,5.33753,0.166363,2.58678,0.125192,diorite
186,72.7602,0.536526,16.1836,4.65878,2.49573,4.69854,0.141852,2.04821,0.14345,diorite
188,62.2947,0.911445,17.5822,8.08024,4.00033,5.83656,0.175388,2.28322,0.167289,diorite
190,66.1932,0.910957,16.465,7.63524,4.2973,6.18788,0.185472,1.95769,0.150776,diorite
192,63.7206,0.894468,18.1215,7.47492,3.94371,6.15441,0.146752,2.23894,0.112733,diorite
194,61.4142,0.956437,18.8765,8.22981,3.61936,7.38067,0.217936,2.54601,0.199467,diorite
196,62.542,0.792809,16.3406,10.6663,4.98752,7.6508,0.237941,2.0762,0.221346,diorite
198,63.428,0.989252,18.1852,6.84879,3.51661,6.03308,0.146684,2.00336,0.167671,diorite
200,61.56,0.952572,18.5812,7.72598,3.43541,6.2668,0.149928,2.23459,0.180446,diorite
202,56.744,1.18881,18.2243,9.38347,4.9808,5.74089,0.131755,2.40186,0.164979,diorite
204,58.1567,1.1093,16.3373,9.86386,5.72098,5.52384,0.156211,2.35279,0.248441,diorite
206,61.7526,0.780009,17.9328,7.27755,3.85688,5.05554,0.121033,2.36976,0.152769,diorite
208,54.5309,1.03492,14.5121,9.6184,3.69535,5.59243,0.158383,2.70971,0.248873,diorite
210,60.7776,0.986065,16.3799,8.72199,4.04359,5.37256,0.174452,2.79617,0.140792,diorite
212,63.6232,0.88499,17.9898,6.75591,2.91811,6.32167,0.203211,2.30497,0.283111,diorite
214,61.1408,0.971909,17.1413,9.23529,4.07353,6.5826,0.176325,2.20981,0.244803,diorite
216,58.1213,1.01381,15.7249,9.66207,4.92687,6.82347,0.200184,1.65181,0.287331,diorite
218,57.2321,0.837272,16.3691,9.3211,4.75672,6.89428,0.217149,1.55007,0.170478,diorite
220,61.2193,0.887715,15.9447,8.58207,4.95205,6.20749,0.177085,1.95456,0.231081,diorite
222,60.8537,0.725511,16.9757,7.81543,4.19301,5.65799,0.1586,2.26973,0.173585,diorite
224,64.1479,0.765079,17.8476,7.73208,4.68586,5.91902,0.166268,2.21717,0.204484,diorite
226,62.6946,0.896678,18.9474,8.82086,4.94886,5.79206,0.189028,2.14222,0.193653,diorite
228,66.7423,0.689387,18.4281,6.95104,4.10715,6.27999,0.172253,2.20708,0.276832,diorite
230,61.9066,0.776036,16.9945,7.45139,4.02009,5.79406,0.161084,2.1706,0.159913,diorite
232,60.3819,0.982825,19.7507,7.80262,4.5255,5.71958,0.154691,2.35651,0.138383,diorite
234,57.2053,1.19532,17.18,9.25308,4.33569,5.28328,0.180274,2.52197,0.146905,diorite
236,61.369,0.898183,18.1507,6.64347,3.48525,5.19297,0.136641,2.17825,0.176027,diorite
238,59.5145,0.709619,17.083,8.0791,4.96054,5.91041,0.175307,1.92575,0.144911,diorite
240,63.823,0.798843,18.3079,7.75203,4.50485,6.18687,0.16943,2.29959,0.288843,diorite
242,64.37,0.882156,17.077,7.52744,4.06276,5.44652,0.160731,2.27225,0.161939,diorite
244,61.427,1.106,15.9759,9.12806,4.88318,5.10462,0.172837,2.53327,0.182041,diorite
246,60.6599,1.02569,16.5863,9.07868,4.30053,5.11358,0.186802,2.50893,0.178137,diorite
248,76,0.247523,16.552,0.606769,0.45734,0.636052,0.0391682,4.47869,0.0571639,diorite
250,70.9587,0.188022,14.2002,1.82974,0.942767,2.42366,0.066719,1.79273,0.0350027,diorite
252,81.684,0.250425,14.0741,1.25766,1.21696,1.52182,0.0776036,1.6798,0.080571,diorite
254,80.4875,0.18051,15.1843,0.763511,0.485503,1.03942,0.0545044,3.42926,0.0986621,diorite
256,68.35,0.178164,14.2702,0.951218,0.916675,1.2569,0.0508535,3.88049,0.0631278,diorite
258,76.4695,0.10509,13.0628,0.686179,0.230089,0.892671,0.0507314,4.87434,0.0111304,diorite
260,75.4931,0.159397,13.1572,0.763016,0.576895,0.869812,0.0416247,5.96082,0.00415314,diorite
262,70.7076,0.186951,14.0887,0.89049,0.682383,0.824109,0.040254,5.65468,0.0884121,diorite
264,74.7488,0.221515,15.8414,0.920516,0.585868,0.916877,0.0556037,5.55072,0.0582935,diorite
266,75.081,0.193202,15.994,0.848906,0.467296,0.910724,0.0598924,5.50515,0.0814348,diorite
268,74.5327,0.252161,16.3681,1.25916,0.608141,1.05677,0.0752421,6.2659,0.082415,diorite
270,75.9194,0.281165,16.1574,1.3423,0.723247,0.873601,0.0860724,6.4481,0.0933959,diorite
272,79.8851,0.219359,14.9288,1.13782,0.4451,0.520941,0.057463,6.30509,0.0429435,diorite
274,76.4175,0.2904,14.7984,1.06751,0.449732,0.895583,0.0699762,5.92597,0.0487911,diorite
276,61.8846,0.727206,16.6294,7.88069,5.64189,4.26318,0.262574,2.16905,0.119644,diorite
278,58.0414,0.748726,16.752,10.2549,7.0482,5.64537,0.45319,1.70473,0.144546,diorite
280,59.7487,0.815142,15.4001,9.86475,7.32711,4.86648,0.377011,2.05206,0.12187,diorite
282,56.0933,0.788606,15.462,10.3747,7.75494,4.8747,0.395822,2.10152,0.125525,diorite
284,58.654,0.856622,16.8623,9.27237,6.95509,4.87503,0.365163,2.18598,0.115125,diorite
286,62.0898,0.773798,15.6013,8.84416,6.67166,5.06501,0.390271,2.13723,0.107849,diorite
288,61.044,0.709822,16.6729,9.71711,6.46573,5.54358,0.617924,2.0856,0.116604,diorite
290,57.2523,0.878183,17.0313,9.89955,7.26034,6.4052,0.318897,2.40648,0.140825,diorite
292,56.3509,1.02635,16.7647,10.2584,7.80628,6.88575,0.231562,2.69785,0.134047,diorite
294,58.2566,0.958986,16.1545,9.61766,7.17238,6.09939,0.231046,2.74672,0.110557,diorite
296,57.6931,0.94944,15.6306,9.17667,6.04967,5.62996,0.238307,2.85759,0.106171,diorite
298,52.3692,0.934266,12.9322,9.66063,5.1384,4.92986,0.316793,2.99597,0.115291,diorite
300,62.5719,1.00628,16.2616,8.97262,5.81219,4.67869,0.208721,3.23245,0.122584,diorite
302,64.5158,1.00693,16.6382,7.83927,4.48105,3.40464,0.272495,3.50664,0.204717,diorite
304,65.6955,0.657725,18.0905,5.56361,3.54578,4.17977,0.142232,2.72877,0.163169,diorite
306,63.2288,0.564812,20.57,4.47016,2.95368,4.53998,0.151136,3.12947,0.120989,diorite
308,59.4195,0.742054,20.6702,6.07,3.71939,5.47746,0.207228,2.75125,0.255834,diorite
310,62.2861,0.794165,16.1214,7.57313,5.24335,4.5329,0.20412,2.7393,0.136755,diorite
312,58.2274,1.04039,17.1205,9.8088,6.17594,4.65509,0.304321,3.3617,0.117036,diorite
314,76.8147,0.13644,13.2912,1.28337,0.484598,0.309289,0.0774271,5.47492,0.0851726,granite
316,76.266,0.151261,13.743,1.41813,0.713629,0.34887,0.0905239,5.56471,0.0889603,granite
318,83.6325,0.0675692,11.4475,0.436605,0.230089,0.109098,0.0235471,5.36246,0.06449,granite
320,87.9946,0.0227807,9.29443,0.194715,0.230089,0.125695,0.0134632,3.95079,0.0521967,granite
322,86.8305,0.0370322,9.5849,0.170675,0.230089,0.125679,0.0117668,4.72668,0.0535921,granite
324,78.2253,0.0432155,11.9861,1.27666,0.230089,0.0702062,0.0239542,5.43076,0.0561339,granite
326,76.2293,0.051799,13.4381,0.30298,0.230089,0.230315,0.0156754,6.50755,0.0925819,granite
328,83.9042,0.0369373,9.49352,0.195622,0.230089,0.135621,0.00897096,4.37453,0.0703376,granite
330,78.2565,0.0998419,13.1219,1.08244,0.230089,0.222064,0.0684155,5.03746,0.0816342,granite
332,87.8909,0.0518803,9.09101,0.4402,0.230089,0.324054,0.0381639,3.96133,0.140725,granite
334,77.384,0.145403,13.0724,1.26017,0.230089,0.264479,0.109226,3.98058,0.0903724,granite
336,82.4188,0.119233,13.914,0.982976,0.411952,0.310745,0.0859774,3.85355,0.0960539,granite
338,81.3269,0.0810207,12.4424,0.56741,0.40218,0.275815,0.0419097,5.26756,0.0869336,granite
340,72.512,0.0509583,18.5747,0.20883,0.230089,0.244313,0.0100567,9.30352,0.208106,granite
342,84.3152,0.0852378,12.6364,1.20025,0.551999,0.144734,0.103132,5.12752,0.0726302,granite
344,88.0847,0.0430528,11.4382,0.247925,0.230089,0.24854,0.0124182,3.81655,0.0963529,granite
346,84.2489,0.130677,10.3106,1.14224,0.49147,0.36434,0.11323,3.95127,0.0806042,granite
348,83.3951,0.0355813,12.2901,0.18995,0.230089,0.250951,0.00981241,5.61907,0.10039,granite
350,73.062,0.059501,13.3119,0.35431,0.406107,1.50826,0.0169919,6.41154,0.234154,granite
352,68.8155,0.0488836,14.6158,0.343163,0.47653,1.11486,0.0184712,5.7034,0.106503,granite
354,86.1647,0.0256961,8.92813,0.232689,0.37618,0.20506,0.0127846,3.84284,0.0849235,granite
356,96.55,0.00169499,4.83111,0.153494,0.230089,0.116676,0.00884882,1.41168,0.0296368,granite
358,75.9901,0.0391882,15.0817,0.205367,0.230089,0.284849,0.0132189,6.65386,0.124428,granite
360,77.4458,0.0460767,14.7249,0.199744,0.230089,0.170333,0.0100974,6.30165,0.115358,granite
362,87.0358,0.0279335,10.699,0.119741,0.230089,0.216271,0.00583588,4.17894,0.0881297,granite
364,77.2431,0.027364,14.0262,0.19648,0.442998,0.473923,0.0107489,5.34571,0.219219,granite
366,69.5377,0.0333303,18.2179,0.170147,0.230089,0.421926,0.0136397,9.14562,0.286185,granite
368,75.3722,0.028164,14.8572,0.246259,0.230089,0.336282,0.0126625,5.35919,0.121737,granite
370,83.1791,0.0319201,13.3438,0.284216,0.230089,0.29108,0.0156754,5.46568,0.139662,granite
372,73.9038,0.0657386,18.2751,1.08314,0.373941,0.239835,0.0570016,4.71645,0.0934291,granite
374,77.8841,0.0267266,14.7545,0.562777,0.230089,0.597191,0.0281479,4.57908,0.203205,granite
376,78.6419,0.0235536,12.19,1.21753,0.230089,0.300271,0.167082,4.29835,0.123548,granite
378,77.281,0.0370593,14.9905,0.662633,0.230089,0.347038,0.0501342,5.72866,0.159414,granite
380,69.3898,0.0517854,18.5071,0.366479,0.230089,0.416509,0.0173855,8.6919,0.269655,granite
382,73.2574,0.0536431,16.778,0.565003,0.407595,0.376521,0.0377296,6.84587,0.224569,granite
384,74.195,0.0426867,15.8061,0.893359,0.230089,0.376583,0.0476913,5.75346,0.135343,granite
386,78.3803,0.0206789,14.2673,0.400165,0.230089,0.297766,0.0240221,5.3234,0.143151,granite
388,82.147,0.0302116,12.4746,0.29744,0.230089,0.303355,0.0173448,4.3314,0.105988,granite
390,76.4389,0.0341711,14.9433,0.307564,0.230089,0.259876,0.0178198,5.65631,0.112833,granite
392,88.4568,0.0225909,9.45314,0.209935,0.230089,0.249432,0.0147797,3.56586,0.0734109,granite
394,79.268,0.00169499,1.52956,0.311785,0.230089,0.502341,0.0142368,0.234981,0.00415314,granite
396,86.009,0.00169499,10.9715,0.185779,0.230089,0.33301,0.0139247,2.75712,0.0690418,granite
398,74.9792,0.0435952,16.7764,0.353436,0.230089,0.38795,0.0203577,4.38238,0.150526,granite
400,80.064,0.0270792,13.4358,0.326856,0.230089,0.558409,0.0211856,4.30607,0.164381,granite
402,79.9413,0.029737,14.5147,0.335397,0.230089,0.331569,0.0150783,3.51461,0.0912861,granite
404,75.7361,0.0623893,16.5302,0.696402,0.230089,0.386369,0.0395347,3.77891,0.0880466,granite
406,84.1835,0.0493718,11.6912,0.349528,0.230089,0.373186,0.0160962,2.89432,0.0935122,granite
408,80.0142,0.0480022,13.7376,0.354277,0.230089,0.350687,0.0199098,3.4933,0.103164,granite
410,74.618,0.0907296,14.0374,0.904572,0.230089,0.719598,0.0918811,2.87684,0.076667,granite
412,79.8005,0.0761255,13.7158,0.707845,0.414022,0.444723,0.0586573,3.22064,0.090987,granite
414,78.4468,0.0263876,14.1438,0.35121,0.230089,0.2626,0.019842,4.89545,0.121222,granite
416,79.5342,0.085048,12.2461,0.55318,0.230089,0.482143,0.0543551,4.14628,0.0992601,granite
418,80.05,0.0295064,11.5134,0.358366,0.230089,0.706415,0.0278358,2.25575,0.0862026,granite
420,74.8623,0.0812376,15.1713,0.915223,0.535555,0.959761,0.0981784,4.00835,0.125724,granite
422,71.4788,0.0249367,17.4773,0.20451,0.230089,0.593966,0.0130968,3.40514,0.110058,granite
424,74.6087,0.0429308,14.0377,0.184311,0.230089,0.281326,0.00716591,5.44441,0.0979975,granite
426,77.1398,0.0400018,14.0357,0.246539,0.230089,0.33719,0.0139247,4.86661,0.0961369,granite
428,58.7428,0.622401,17.8156,6.80744,4.02648,4.15452,0.1931,2.35448,0.0878639,diorite
430,59.3538,0.693062,17.1467,7.66878,5.12076,4.62932,0.210702,2.40003,0.103413,diorite
432,60.2882,0.790138,17.2802,8.85661,5.85673,5.38734,0.229676,2.35585,0.129728,diorite
434,62.9539,0.583796,17.3262,7.19609,4.99734,4.43696,0.200035,2.50446,0.123448,diorite
436,60.067,0.669278,17.5001,8.51527,5.58776,4.9644,0.237547,2.08375,0.138499,diorite
438,56.497,0.708426,17.4634,8.65835,6.00019,3.58302,0.25933,2.00819,0.114245,diorite
440,59.726,0.679936,17.491,9.02316,6.37804,4.53411,0.253386,2.06202,0.127684,diorite
442,63.3262,0.550493,17.7695,7.06709,4.59023,3.84351,0.204894,2.15629,0.253807,diorite
444,64.5817,0.908109,17.6293,7.05805,4.6001,3.84587,0.230286,2.6511,0.112052,diorite
446,59.4317,0.509501,16.3477,5.36019,3.22591,6.31715,0.176162,3.83301,0.114344,diorite
448,59.8206,0.675936,16.0267,7.99121,4.75034,3.10174,0.217081,3.05666,0.131106,diorite
450,64.2002,0.672641,16.9959,6.5482,3.72358,2.74587,0.174384,3.5784,0.121571,diorite
452,59.4238,1.00777,16.3179,9.08618,5.53983,3.65683,0.24736,2.99282,0.18028,diorite
454,61.3363,0.718202,16.9556,7.64502,4.86405,4.33315,0.225577,3.07627,0.138565,diorite
456,60.2239,0.823251,15.3363,9.71341,6.25029,4.26349,0.272576,2.46512,0.182855,diorite
458,57.9051,0.705903,16.1711,8.44084,4.88384,7.34923,0.222998,2.10005,0.12496,diorite
460,57.6394,0.833869,15.471,8.96982,5.38849,3.70233,0.25363,1.90978,0.200863,diorite
462,63.6844,0.616882,15.8265,7.70192,4.50909,3.09963,0.211422,3.61031,0.132901,diorite
464,54.9302,0.63028,15.3217,8.12236,4.46868,6.6864,0.241252,1.44005,0.108164,diorite
466,56.1312,0.786327,16.4667,8.83067,4.38383,4.49904,0.274096,2.55475,0.162986,diorite
468,56.7833,0.885139,17.4891,8.98116,5.15772,4.13022,0.290504,2.69173,0.168883,diorite
470,58.7593,0.798965,15.795,8.83135,5.4604,3.56497,0.274286,2.94748,0.235134,diorite
472,59.9052,0.79148,13.6285,8.75634,5.28981,3.14705,0.257484,1.34959,0.211096,diorite
474,67.8246,0.786395,15.208,3.51289,2.31428,3.4148,0.112741,4.58461,0.0936284,diorite
476,66.1488,0.984967,15.094,4.25932,2.70404,1.8385,0.140916,4.742,0.200713,diorite
478,55.0823,1.01233,16.9948,7.88814,4.92349,6.93775,0.211408,3.79478,0.220366,diorite
480,49.9909,1.34917,13.9698,7.26688,4.30831,3.56736,0.211489,4.74676,0.22309,diorite
482,54.3919,0.737024,16.5127,8.23101,4.82141,4.03086,0.218791,3.68661,0.115208,diorite
484,54.8051,0.748346,15.1257,7.88389,4.56414,4.42376,0.206604,2.7016,0.124312,diorite
486,54.6369,0.831089,15.7074,8.46061,5.34233,3.93278,0.22878,2.8856,0.122883,diorite
488,60.6533,0.703286,16.8776,7.85198,5.72956,5.01527,0.218058,3.43718,0.218954,diorite
490,57.1889,0.755031,17.991,7.03821,5.06153,4.29094,0.216307,2.78844,0.150842,diorite
492,59.8897,0.668166,18.2099,7.26221,4.77239,4.83119,0.213308,3.19557,0.082714,diorite
494,64.9607,0.725186,16.4111,7.78982,5.27496,3.51119,0.225183,3.2304,0.109327,diorite
496,62.1421,0.669075,17.7249,8.26397,4.57658,2.30451,0.275983,3.01839,0.117218,diorite
498,56.9657,0.787873,15.6209,11.4139,5.77694,3.0245,0.448711,2.94134,0.114378,diorite
500,61.7682,0.729294,16.7534,9.53698,4.46913,2.16099,0.264365,2.75985,0.106952,diorite
502,56.7187,0.694933,16.718,12.4091,5.82211,2.3871,0.382657,0.782713,0.14242,diorite
504,48.2395,0.378444,17.0356,21.7448,4.1584,4.65385,0.341589,0.510184,0.0403353,diorite
506,48.6968,0.694039,17.9087,18.323,7.50657,2.27583,0.380553,0.676395,0.166209,diorite
508,52.528,0.62453,16.8469,14.6185,5.91739,1.44054,0.326225,0.736035,0.130508,diorite
510,59.9431,0.69435,15.0707,11.1261,6.14718,1.5906,0.245948,1.55368,0.133615,diorite
512,57.2947,0.709768,17.1051,8.84828,4.40696,3.92234,0.215941,3.21452,0.0947083,diorite
514,59.7708,0.750136,17.0462,8.5147,5.24819,3.36935,0.23885,2.23121,0.100656,diorite
516,59.6282,0.911635,17.258,8.79421,5.50352,4.13321,0.266659,2.22278,0.194517,diorite
518,62.4998,0.756794,16.3233,8.04622,5.52028,4.15186,0.235281,2.34725,0.167488,diorite
520,58.6654,0.807156,17.3789,9.40918,6.2497,4.4958,0.293585,2.1051,0.120258,diorite
522,60.4143,0.785121,18.089,8.23023,5.23799,4.0223,0.248812,2.10092,0.152287,diorite
524,53.0097,0.533014,13.3926,6.77524,3.128,3.4856,0.223148,2.71493,0.110789,diorite
526,58.3786,0.760536,17.3651,8.74391,5.50224,3.73535,0.288428,2.93089,0.230067,diorite
528,58.1785,0.714338,17.9623,8.28943,5.7002,4.14998,0.258461,2.70795,0.183669,diorite
530,57.0238,0.693361,17.5734,8.61632,5.59259,4.99901,0.282104,2.25292,0.190513,diorite
532,55.9232,0.706609,15.3961,8.87476,5.35712,4.64942,0.289527,2.59095,0.164531,diorite
534,54.6276,0.864501,17.6005,9.0304,5.23832,5.10277,0.295838,3.17093,0.169581,diorite
536,56.5698,0.834723,16.3801,9.28901,5.35835,4.47901,0.322113,2.76551,0.146656,diorite
538,54.9609,0.881084,14.6956,9.17332,5.76024,3.63356,0.305053,3.47387,0.133133,diorite
540,55.674,0.888081,17.1025,9.03523,5.44216,4.09623,0.264107,3.88352,0.1433,diorite
542,58.4931,0.792796,17.3941,7.79971,5.07624,4.52318,0.216687,2.79789,0.0834948,diorite
544,59.9252,0.650281,14.2903,10.4267,6.42417,5.45838,0.339472,3.20891,0.126006,diorite
546,58.0346,0.801121,17.5346,8.97843,5.99187,4.66582,0.263849,2.13409,0.172654,diorite
548,57.1117,0.934009,20.0879,8.83807,5.74898,3.92665,0.227029,3.25799,0.195331,diorite
550,63.3175,0.782273,17.8368,9.04654,4.75438,4.21386,0.242026,2.19191,0.158085,diorite
552,56.9887,0.733728,17.55,14.893,6.24307,1.74971,0.223935,2.28963,0.211461,diorite
554,39.0372,0.85551,14.6953,11.8118,4.7169,5.01282,2.06471,0.00150575,0.149114,diorite
556,56.0325,0.772985,15.2206,10.4066,5.04182,1.94376,2.2058,0.0995481,0.227509,diorite
558,55.8676,0.991015,14.093,11.9052,5.84719,1.7286,2.42173,1.33075,0.244238,diorite
560,58.3783,0.895688,16.4166,9.66421,5.63778,2.02272,1.88697,2.3491,0.232011,diorite
562,58.2069,0.900977,16.0692,10.3625,6.21909,1.69874,1.78631,1.81238,0.206029,diorite
564,58.4753,0.587268,16.1896,8.11656,4.33066,3.75138,1.29084,1.85589,0.203055,diorite
566,57.9809,0.809068,16.3039,11.1697,6.20659,2.50657,1.96349,1.35284,0.210066,diorite
568,57.5149,0.930076,16.9569,10.4821,5.8475,2.56866,1.83318,1.67759,0.203222,diorite
570,61.3816,0.806274,15.7258,9.64111,5.44595,2.08275,1.82196,1.37211,0.193088,diorite
572,59.9573,0.797067,15.7542,9.79498,5.93555,1.73065,1.78523,1.62143,0.195148,diorite
574,66.2645,0.562548,13.2751,8.00302,4.07923,3.64194,1.50025,0.869107,0.162438,diorite
576,55.749,0.793663,16.801,9.98224,5.47835,2.53096,1.70416,0.00150575,0.215448,diorite
578,50.1654,0.201257,17.1669,5.65112,2.36734,14.8265,0.735605,0.00150575,0.36453,diorite
580,69.0865,0.119151,17.5759,2.55143,1.0113,5.60472,0.23885,0.00150575,0.164763,diorite
582,68.7748,0.234628,15.3916,3.16028,1.41893,6.91038,0.289147,3.49494,0.400479,diorite
584,66.3509,0.206884,12.7112,1.38334,0.741991,3.60325,0.112157,6.13928,0.208006,diorite
586,62.6759,0.677577,13.9171,7.94664,3.68529,2.68839,0.566949,1.85993,0.187041,diorite
588,59.3722,0.776646,15.3483,9.25354,4.1719,2.50934,0.742364,3.17047,0.199118,diorite
590,58.5586,0.949955,16.9523,9.50623,5.06675,4.47392,0.677925,3.03433,0.263542,diorite
592,62.1267,0.905438,15.7067,9.43328,4.93606,3.02594,0.750887,3.6652,0.160245,diorite
594,60.019,0.719965,14.883,9.54059,3.61873,7.11519,0.572893,1.21179,0.148251,diorite
596,57.8764,0.837042,14.2729,9.66705,4.88784,2.86981,0.628157,4.43881,0.136323,diorite
598,57.2529,1.02424,16.3789,11.0942,5.69127,5.54911,0.520071,1.16129,0.219734,diorite
600,61.6441,1.00479,16.8128,9.88336,5.9089,3.72013,0.502428,2.75791,0.235284,diorite
602,61.945,0.849639,16.615,9.22856,5.67651,3.74196,0.423739,3.24722,0.213006,diorite
604,38.7979,0.979109,11.7326,12.6378,2.98396,7.16074,0.446689,1.10759,0.177372,diorite
606,59.5942,0.838235,17.2883,9.14496,4.6441,4.8159,0.320471,2.89975,0.221828,diorite
608,59.6477,1.06296,16.456,11.0408,5.86078,4.92182,0.42397,3.22803,0.252578,diorite
610,61.085,0.933805,17.8522,10.2607,5.53179,4.8587,0.342566,2.9153,0.192872,diorite
612,62.2719,0.855958,19.4254,8.48499,4.26648,5.22282,0.173081,2.65143,0.239985,diorite
614,56.9492,0.918171,17.1771,8.76853,4.34815,5.27022,0.183504,2.29591,0.20068,diorite
616,63.0432,0.718691,17.4464,6.79438,3.23892,4.80054,0.126435,2.4073,0.190314,diorite
618,61.48,0.822505,16.9279,7.88178,3.79401,4.98246,0.154461,2.49153,0.228523,diorite
620,58.0479,1.24625,16.5873,9.89795,4.88192,4.83712,0.170625,2.93217,0.233689,diorite
622,64.6344,0.772523,17.216,7.37048,3.76089,4.95857,0.145232,2.48579,0.13913,diorite
624,59.4306,0.677265,18.3383,6.43288,2.99143,5.07392,0.139057,3.12733,0.213687,diorite
626,59.3859,1.05641,16.2584,8.50922,3.68471,4.9077,0.159414,2.82113,0.205813,diorite
628,55.6991,0.910387,16.3824,9.2499,4.10073,5.95477,0.176528,3.05891,0.212508,diorite
630,57.6401,0.94502,17.384,9.10992,4.80719,5.55078,0.1711,2.79695,0.186775,diorite
632,64.4597,0.703273,16.6859,6.90626,3.7842,5.11841,0.131769,2.36386,0.19656,diorite
634,59.9467,1.13825,15.6209,9.71044,4.63444,4.67591,0.164965,3.04661,0.221811,diorite
636,63.7934,0.828119,16.9286,7.79312,3.92486,4.89474,0.136044,2.6102,0.140742,diorite
638,62.1687,0.94026,18.1836,7.75582,3.60282,4.5629,0.118075,2.85414,0.181675,diorite
640,65.4781,0.745851,17.3822,7.0261,3.42376,4.74903,0.120205,2.68437,0.157919,diorite
642,62.4584,0.780646,18.4812,6.15876,2.69038,4.51067,0.10985,2.6321,0.148433,diorite
644,59.0302,0.832241,16.127,8.09082,3.88508,6.91371,0.144947,2.59336,0.251896,diorite
646,62.7605,0.739559,17.3107,6.12972,2.61718,4.41806,0.132705,2.97671,0.242029,diorite
648,59.4427,0.844052,19.1597,6.8142,3.18997,4.521,0.132515,3.08629,0.248391,diorite
650,65.0013,0.62971,18.2401,3.99037,1.99106,4.43414,0.0964548,2.45589,0.190546,diorite
652,67.5643,0.72223,17.4436,5.34405,2.73624,4.29384,0.133669,2.52865,0.249388,diorite
654,63.3495,0.560392,15.6781,6.2148,3.57271,4.60975,0.148842,2.32077,0.160511,diorite
656,56.8067,0.64708,16.8941,6.76109,2.71052,5.5369,0.158912,3.43759,0.242726,diorite
658,60.3794,0.89417,18.0969,9.74327,5.08058,5.13722,0.208056,2.73991,0.153699,diorite
660,61.4636,0.86469,18.8792,8.33772,3.85752,4.56538,0.1654,3.0527,0.181492,diorite
662,61.2869,0.893993,17.7978,9.13298,4.49292,4.95195,0.18934,2.6418,0.182539,diorite
664,65.1659,0.718202,16.7691,7.71236,3.59488,4.24165,0.155723,2.47102,0.148799,diorite
666,61.4447,0.894454,17.5991,8.20852,3.6465,4.50394,0.158437,2.47867,0.172239,diorite
668,62.3619,0.794016,17.4018,8.52431,3.82151,4.18453,0.173787,2.75226,0.170395,diorite
670,64.2671,0.635012,15.5052,7.69918,3.25388,7.71448,0.179419,2.5234,0.102234,diorite
672,77.8191,0.270331,12.9559,3.65651,1.55068,4.52006,0.0920983,0.918158,0.0398037,diorite
674,60.7135,0.905479,16.5978,9.27379,4.65251,6.01134,0.182052,2.96269,0.197922,diorite
676,62.0837,0.803169,18.5567,7.68315,4.11093,4.93574,0.145788,2.306809,0.219884,diorite
678,62.4009,0.878101,17.0569,8.53152,4.80399,5.0961,0.148421,2.13613,0.195264,diorite
680,60.7637,0.893153,11.8808,9.29941,10.8417,5.59168,0.155682,4.09071,0.25399,diorite
682,60.0543,0.563524,16.8158,6.05943,6.91421,5.31101,0.138555,5.13579,0.0542899,diorite
684,63.494,0.67557,15.8693,5.30507,6.03625,4.73695,0.148747,5.6372,0.222824,diorite
686,58.8099,0.811888,12.8162,9.59224,11.7607,5.89203,0.258774,4.50099,0.0509508,diorite
688,64.3129,0.417063,18.1957,4.22436,4.98402,5.11868,0.140441,5.35694,0.152038,diorite
690,61.2496,0.254724,18.9124,5.15913,7.11529,7.46533,0.151054,3.72496,0.0934125,diorite
692,65.0372,0.674783,11.7872,7.35572,8.76426,4.82052,0.165752,4.17313,0.160394,diorite
694,65.9613,0.683218,12.2498,6.59628,8.01752,4.44508,0.129204,3.14595,0.0873489,diorite
696,64.1721,0.295159,17.161,4.74979,5.87454,6.61866,0.111805,2.80998,0.0237227,diorite
698,60.863,0.740278,15.563,7.04958,7.51548,5.01945,0.123123,4.56429,0.151806,diorite
700,65.3207,0.224295,17.6144,4.84805,6.3076,7.11494,0.11608,2.71043,0.00415314,diorite
702,62.6976,0.311201,19.5232,4.52731,6.13737,7.38801,0.108873,3.86593,0.125176,diorite
704,58.5463,1.02472,11.099,10.5717,12.1539,5.82694,0.155926,3.34743,0.169232,diorite
706,59.7061,0.504254,17.2914,6.96761,8.77597,6.87351,0.133207,3.25219,0.0366806,diorite
708,65.1073,0.418812,17.071,5.70553,7.12657,6.19609,0.118373,3.2608,0.112367,diorite
710,66.3382,1.0211,10.8452,9.52391,10.8115,4.21015,0.144336,3.51979,0.0894255,diorite
712,60.2141,0.709239,16.2228,7.63367,9.44859,5.62561,0.136193,3.77706,0.0649053,diorite
714,61.1086,0.653684,16.1021,8.01039,9.65321,6.57649,0.207472,2.81455,0.0371789,diorite
716,55.0561,0.99469,10.0415,10.683,11.6625,5.19684,0.285646,3.44239,0.130176,diorite
718,58.3851,0.291132,13.7142,5.77102,6.03154,6.88863,0.128796,2.10923,0.039621,diorite
720,60.9645,0.503996,18.5544,5.95268,7.81102,5.88295,0.112524,3.31114,0.057928,diorite
722,65.3298,0.593993,13.8302,6.53338,7.84825,5.99576,0.10795,2.78213,0.130442,diorite
724,60.0526,0.610509,18.1199,6.47026,7.81519,5.58246,0.109022,3.17057,0.153932,diorite
726,57.9443,1.10505,12.5171,10.0239,11.7738,6.19922,0.136695,3.51861,0.180662,diorite
728,60.5069,0.754706,16.7488,6.79047,7.29646,4.82538,0.0958576,4.68969,0.19352,diorite
730,57.532,0.615282,17.8107,6.2613,7.05884,6.28785,0.106864,4.7201,0.0958047,diorite
732,58.7799,0.328368,16.579,5.79795,7.3143,8.02007,0.120911,3.60575,0.0795244,diorite
734,74.7416,0.454272,13.0815,4.96974,4.69627,5.633,0.0830187,3.68553,0.0660848,diorite
736,57.2296,0.422379,17.654,5.82652,7.39115,6.20177,0.114315,2.9097,0.0798068,diorite
738,55.4322,0.50744,17.572,6.89559,7.74357,5.92691,0.124711,3.17511,0.00415314,diorite
740,65.8417,0.776537,12.2128,6.96479,7.18165,4.5492,0.106987,4.67329,0.0447709,diorite
742,59.6433,0.404615,19.3639,5.4813,7.45871,6.57998,0.108737,2.84387,0.177622,diorite
932,63.0666,0.856093,13.2164,8.3956,7.35831,5.46663,0.19139,3.00927,0.154464,diorite
934,50.7416,0.273097,14.459,5.54809,5.14233,13.1303,0.125349,2.5514,0.00415314,diorite
936,58.0361,0.54713,16.7166,7.45622,6.84626,5.97747,0.163961,3.18412,0.201427,diorite
938,63.113,0.716887,14.8595,7.49278,6.37155,5.33326,0.168548,3.85772,0.240268,diorite
940,66.6462,0.702513,14.4558,6.40482,5.77022,4.24849,0.136682,4.55203,0.0777468,diorite
942,62.8934,1.01051,15.4167,6.9543,5.91371,4.39579,0.150688,4.44795,0.243241,diorite
944,54.8933,0.953128,18.6753,8.84454,7.99398,4.69307,0.187101,3.0867,0.0413321,diorite
946,63.0098,0.760875,14.4093,7.70797,7.01669,4.90806,0.175687,2.45364,0.197723,diorite
948,67.51,0.687828,15.0627,6.68516,5.90195,3.54239,0.162767,3.41539,0.116637,diorite
950,59.2203,0.782205,15.746,8.90452,7.44176,4.22181,0.195719,2.23414,0.177007,diorite
952,61.9873,0.546493,15.2799,6.60633,5.61953,4.5087,0.154949,2.47487,0.177206,diorite
954,68.8869,0.228458,17.2035,0.836787,1.14906,1.47209,0.0406476,10.3373,0.680268,diorite
956,63.3631,0.178829,13.8107,0.341828,0.232701,1.70486,0.0264243,7.08224,0.0878805,diorite
958,46.5438,0.612367,11.2961,7.85154,4.6216,8.27378,0.206536,1.39571,0.071866,diorite
960,53.719,0.672627,13.0113,7.78116,4.71317,2.78664,0.155641,2.70141,0.10225,diorite
962,58.8073,0.961685,12.08,11.8391,10.4191,4.88888,0.279213,1.29649,0.127468,diorite
964,58.7166,0.82839,14.8877,9.9922,8.82334,4.61205,0.234005,2.23769,0.307333,diorite
966,61.7918,0.835347,12.661,10.689,9.34932,5.11228,0.252571,1.70573,0.216561,diorite
968,64.9819,0.611323,13.1983,7.2246,6.62121,3.96973,0.198203,2.67049,0.20053,diorite
970,63.2115,0.573626,14.0725,7.09281,6.05739,5.97313,0.164897,2.66071,0.169631,diorite
972,62.4738,0.71964,15.2877,8.14914,6.53418,4.22238,0.177967,3.07487,0.176359,diorite
974,64.2717,0.503332,15.5846,7.06044,6.08885,4.73768,0.162414,2.8658,0.20475,diorite
976,62.8636,0.441227,18.8789,5.35168,4.38249,4.34633,0.130289,4.14733,0.0550042,diorite
978,71.0448,0.521732,14.2566,6.88022,5.95317,4.27409,0.147906,2.78454,0.165677,diorite
980,62.0401,0.508525,16.866,7.27761,6.02911,4.99629,0.16654,2.85927,0.255285,diorite
982,64.7031,0.46672,15.6815,6.6967,6.0844,4.9547,0.155655,2.78582,0.10225,diorite
984,56.7501,0.510952,17.5764,8.85641,8.59045,2.35635,0.166797,2.10011,0.149447,diorite
985,60.5547,0.673305,16.5636,8.22852,6.78725,4.50383,0.188363,3.04743,0.171591,diorite